File: data/PDMS/Tensile_pdms.csv
1,0
1.00108,168.004
1.00214,415.005
1.00321,697.35
1.00428,996.035
1.00534,1690
1.00641,2040
1.007477,2200
1.00854,2970
1.00961,3250
1.01068,3500
1.01174,4110
1.01281,4720
1.01388,4570
1.01495,5430
1.01601,5870
1.01708,5860
1.01815,6420
1.01921,6840
1.02028,7240
1.02135,7770
1.02241,8220
1.02348,8690
1.02455,9270
1.025615,9600
1.026682,10020
1.02775,10270
1.02882,10720
1.02988,11150
1.03095,11800
1.03202,12020
1.03308,11970
1.03415,12880
1.03522,13180
1.03628,13590
1.03735,13980
1.03842,14450
1.03949,15040
1.04055,15260
1.04162,15700
1.04269,16050
1.04375,16590
1.04482,16930
1.045887,17370
1.04695,17620
1.04802,17970
1.04909,18370
1.05015,18870
1.05122,19280
1.05229,19540
1.05336,20160
1.05442,20230
1.05549,20810
1.05656,21370
1.05762,21560
1.05869,22000
1.05976,22150
1.06082,22680
1.06189,23130
1.06296,23410
1.06403,23780
1.065092,24130
1.066159,24900
1.06723,25140
1.06829,25480
1.06936,25510
1.07043,26120
1.07149,26450
1.07256,26720
1.07363,26980
1.07469,27530
1.07576,27850
1.07683,28360
1.0779,28250
1.07896,28830
1.08003,29270
1.0811,29460
1.08216,30150
1.08323,30180
1.084297,30180
1.085364,30770
1.08643,30900
1.0875,31200
1.08856,31740
1.08963,32190
1.0907,32430
1.09177,32800
1.09283,33100
1.0939,33230
1.09497,33730
1.09603,34070
1.0971,34440
1.09817,34790
1.09923,35090
1.1003,35490
1.10137,35520
1.10244,36100
1.1035,36390
1.104569,36740
1.10564,37240
1.1067,37240
1.10777,37710
1.10884,38110
1.1099,38420
1.11097,38860
1.11204,38950
1.1131,39340
1.11417,39760
1.11524,39660
1.11631,40040
1.11737,40540
1.11844,41250
1.11951,41190
1.12057,41580
1.12164,41970
1.12271,41910
1.123774,42470
1.124841,42780
1.12591,43120
1.12697,43800
1.12804,43850
1.12911,43980
1.13018,44660
1.13124,44710
1.13231,44810
1.13338,45400
1.13444,45570
1.13551,46190
1.13658,46390
1.13764,46380
1.13871,46770
1.13978,47390
1.14085,47560
1.14191,47960
1.142979,48530
1.144046,48720
1.14511,48860
1.14618,49260
1.14725,49690
1.14831,49710
1.14938,50060
1.15045,50230
1.15151,50420
1.15258,51010
1.15365,51260
1.15472,51630
1.15578,51830
1.15685,52290
1.15792,52650
1.15898,53050
1.16005,53300
1.16112,53340
1.16218,53820
1.163251,53680
1.164318,54410
1.16538,54400
1.16645,54700
1.16752,54820
1.16859,55330
1.16965,55460
1.17072,55960
1.17179,56350
1.17285,56090
1.17392,56840
1.17499,57240
1.17605,57320
1.17712,57580
1.17819,57880
1.17926,57840
1.18032,58450
1.18139,58940
1.182456,58900
1.183523,59340
1.18459,59550
1.18566,59680
1.18672,60280
1.18779,60620
1.18886,60590
1.18992,60900
1.19099,61100
1.19206,61450
1.19313,61770
1.19419,62060
1.19526,62420
1.19633,62830
1.19739,62870
1.19846,63040
1.19953,63310
1.20059,63760
1.20166,63990
1.202728,64120
1.20379,64630
1.20486,64650
1.20593,65070
1.207,65330
1.20806,65540
1.20913,66020
1.2102,66480
1.21126,66390
1.21233,66610
1.2134,66840
1.21446,67200
1.21553,67730
1.2166,68020
1.21767,68140
1.21873,68260
1.2198,68470
1.22087,68840
1.221933,69040
1.223,69070
1.22407,69470
1.22513,69510
1.2262,70250
1.22727,70420
1.22833,70680
1.2294,70810
1.23047,71080
1.23154,71550
1.2326,71370
1.23367,71820
1.23474,72110
1.2358,72310
1.23687,72560
1.23794,73310
1.239,73170
1.24007,73630
1.241138,73800
1.242205,74090
1.24327,74270
1.24434,74640
1.24541,74680
1.24647,74960
1.24754,75630
1.24861,75630
1.24967,75940
1.25074,76070
1.25181,76140
1.25287,76510
1.25394,76940
1.25501,76770
1.25608,77410
1.25714,77770
1.25821,77760
1.25928,77800
1.26034,78460
1.26141,78070
1.262477,78400
1.26354,79100
1.26461,79430
1.26568,79340
1.26674,79850
1.26781,79910
1.26888,80040
1.26995,80070
1.27101,80450
1.27208,81170
1.27315,81070
1.27421,81070
1.27528,81490
1.27635,81920
1.27741,82040
1.27848,82160
1.27955,82550
1.280615,82500
1.281682,83190
1.28275,83550
1.28382,83610
1.28488,83580
1.28595,83710
1.28702,84260
1.28808,84350
1.28915,84930
1.29022,84720
1.29128,85260
1.29235,85460
1.29342,85480
1.29449,85850
1.29555,86470
1.29662,86580
1.29769,86770
1.29875,87070
1.29982,87320
1.300887,87320
1.30195,87820
1.30302,87700
1.30409,88150
1.30515,88440
1.30622,88610
1.30729,88780
1.30836,89070
1.30942,89250
1.31049,89430
1.31156,89790
1.31262,89980
1.31369,90560
1.31476,90270
1.31582,90630
1.31689,90940
1.31796,91100
1.31903,91140
1.320092,91620
1.321159,92250
1.32223,91900
1.32329,92170
1.32436,92600
1.32543,92460
1.32649,92960
1.32756,93260
1.32863,93480
1.32969,93660
1.33076,93750
1.33183,93960
1.3329,94280
1.33396,94430
1.33503,94440
1.3361,94860
1.33716,94940
1.33823,95280
1.339297,95560
1.340364,95840
1.34143,95820
1.3425,96280
1.34356,96560
1.34463,96730
1.3457,96930
1.34677,97350
1.34783,97370
1.3489,97600
1.34997,97520
1.35103,97840
1.3521,98520
1.35317,98410
1.35423,98950
1.3553,98910
1.35637,98880
1.35744,98840
1.3585,99440
1.359569,99730
1.36064,99730
1.3617,100150
1.36277,100160
1.36384,100410
1.3649,100650
1.36597,100830
1.36704,101100
1.3681,101490
1.36917,101560
1.37024,101810
1.37131,102310
1.37237,102310
1.37344,102350
1.37451,103120
1.37557,103060
1.37664,103420
1.37771,103730
1.378774,103730
1.379841,103980
1.38091,104200
1.38197,104420
1.38304,104500
1.38411,104880
1.38518,104850
1.38624,105230
1.38731,105630
1.38838,105540
1.38944,106070
1.39051,106260
1.39158,106460
1.39264,106360
1.39371,106970
1.39478,106830
1.39585,107130
1.39691,107510
1.397979,107570
1.399046,107720
1.40011,108190
1.40118,108220
1.40225,108270
1.40331,108630
1.40438,108800
1.40545,109180
1.40651,109450
1.40758,109630
1.40865,109900
1.40972,110070
1.41078,110080
1.41185,110600
1.41292,110740
1.41398,110890
1.41505,111080
1.41612,111570
1.41718,111470
1.418251,111880
1.419318,111970
1.42038,112160
1.42145,112280
1.42252,112560
1.42359,112560
1.42465,112880
1.42572,113660
1.42679,113650
1.42785,113820
1.42892,114200
1.42999,114070
1.43105,114210
1.43212,114540
1.43319,114390
1.43426,114870
1.43532,115300
1.43639,115190
1.437456,115300
1.438523,115950
1.43959,116060
1.44066,116010
1.44172,116320
1.44279,116350
1.44386,117000
1.44492,116980
1.44599,116810
1.44706,117780
1.44813,117890
1.44919,117830
1.45026,117980
1.45133,118300
1.45239,118050
1.45346,118400
1.45453,118850
1.45559,118730
1.456661,119090
1.457728,119210
1.45879,119440
1.45986,119720
1.46093,120060
1.462,120050
1.46306,120560
1.46413,120710
1.4652,120770
1.46626,120960
1.46733,121180
1.4684,121280
1.46946,121580
1.47053,121660
1.4716,121890
1.47267,122130
1.47373,122550
1.4748,122550
1.47587,122950
1.476933,123160
1.478,123170
1.47907,123470
1.48013,123680
1.4812,123890
1.48227,124230
1.48333,124200
1.4844,124060
1.48547,124780
1.48654,125030
1.4876,125060
1.48867,125220
1.48974,125220
1.4908,125670
1.49187,126070
1.49294,125920
1.494,126260
1.49507,126400
1.496138,126610
1.497205,126740
1.49827,127050
1.49934,126950
1.50041,127220
1.50147,127790
1.50254,127700
1.50361,127850
1.50467,128400
1.50574,128850
1.50681,128710
1.50787,128780
1.50894,128950
1.51001,129020
1.51108,129260
1.51214,129620
1.51321,129900
1.51428,129760
1.51534,130050
1.51641,130250
1.51748,130810
1.51854,130990
1.51961,130980
1.52068,131470
1.52174,131410
1.52281,131810
1.52388,131800
1.52495,132070
1.52601,132020
1.52708,132580
1.52815,132770
1.52921,132790
1.53028,132960
1.53135,133220
1.53241,133290
1.53348,133810
1.53455,133670
1.535615,133690
1.536682,134130
1.53775,134210
1.53882,134590
1.53988,134470
1.54095,134810
1.54202,134900
1.54308,135590
1.54415,135550
1.54522,135630
1.54628,136060
1.54735,136170
1.54842,136510
1.54949,136870
1.55055,136630
1.55162,137180
1.55269,137340
1.55375,137030
1.55482,137780
1.555887,137800
1.55695,137480
1.55802,137840
1.55909,138730
1.56015,138820
1.56122,138960
1.56229,138990
1.56336,139140
1.56442,139170
1.56549,139630
1.56656,139770
1.56762,139830
1.56869,140120
1.56976,140360
1.57082,140470
1.57189,140860
1.57296,141110
1.57403,140910
1.575092,141320
1.576159,141590
1.57723,141590
1.57829,142150
1.57936,142250
1.58043,142130
1.58149,142630
1.58256,142880
1.58363,142760
1.58469,142930
1.58576,143000
1.58683,143230
1.5879,143900
1.58896,143870
1.59003,144220
1.5911,144290
1.59216,144490
1.59323,144480
1.594297,144520
1.595364,144920
1.59643,144970
1.5975,145510
1.59856,145600
1.59963,145790
1.6007,146150
1.60177,146290
1.60283,146380
1.6039,146520
1.60497,146820
1.60603,146790
1.6071,147210
1.60817,147170
1.60923,147700
1.6103,147600
1.61137,147760
1.61244,148130
1.6135,148600
1.614569,148450
1.61564,148860
1.6167,149190
1.61777,149070
1.61884,149090
1.6199,149740
1.62097,149690
1.62204,150050
1.6231,150230
1.62417,150520
1.62524,150520
1.62631,150820
1.62737,150550
1.62844,150990
1.62951,151430
1.63057,151520
1.63164,152140
1.63271,151890
1.633774,152010
1.634841,152280
1.63591,152300
1.63697,152810
1.63804,152920
1.63911,153000
1.64018,153510
1.64124,153500
1.64231,153610
1.64338,153800
1.64444,153630
1.64551,153920
1.64658,154290
1.64764,154650
1.64871,154750
1.64978,154880
1.65085,155300
1.65191,155320
1.652979,155400
1.654046,155770
1.65511,156030
1.65618,155750
1.65725,156130
1.65831,156530
1.65938,156530
1.66045,156550
1.66151,157120
1.66258,156950
1.66365,157270
1.66472,157470
1.66578,157650
1.66685,157930
1.66792,157860
1.66898,158310
1.67005,158380
1.67112,158910
1.67218,158760
1.673251,159130
1.674318,159350
1.67538,159880
1.67645,159840
1.67752,159960
1.67859,159940
1.67965,160090
1.68072,160320
1.68179,160730
1.68285,160850
1.68392,160990
1.68499,161000
1.68605,161290
1.68712,161420
1.68819,161460
1.68926,161890
1.69032,162510
1.69139,162240
1.692456,162740
1.693523,162750
1.69459,163000
1.69566,163120
1.69672,163300
1.69779,163650
1.69886,163760
1.69992,163750
1.70099,164130
1.70206,164500
1.70313,164590
1.70419,164770
1.70526,165070
1.70633,165100
1.70739,165360
1.70846,165500
1.70953,165830
1.71059,166000
1.711661,166490
1.712728,166150
1.71379,166250
1.71486,166720
1.71593,167050
1.717,167080
1.71806,167260
1.71913,167430
1.7202,167720
1.72126,167970
1.72233,168260
1.7234,168350
1.72446,168600
1.72553,168820
1.7266,168930
1.72767,169080
1.72873,169070
1.7298,169490
1.73087,169650
1.731933,170180
1.733,170130
1.73407,170380
1.73513,170560
1.7362,170730
1.73727,171060
1.73833,170940
1.7394,171250
1.74047,171780
1.74154,171710
1.7426,171910
1.74367,172180
1.74474,171960
1.7458,172290
1.74687,172860
1.74794,172830
1.749,173080
1.75007,173200
1.751138,173360
1.752205,173570
1.75327,173710
1.75434,173870
1.75541,174010
1.75647,174640
1.75754,174430
1.75861,174720
1.75967,175040
1.76074,174970
1.76181,175360
1.76287,175350
1.76394,175930
1.76501,175840
1.76608,176140
1.76714,176240
1.76821,176710
1.76928,176920
1.77034,177120
1.77141,177300
1.77248,177560
1.77354,177520
1.77461,177710
1.77568,178210
1.77674,178110
1.77781,178280
1.77888,178650
1.77995,178660
1.78101,179010
1.78208,179170
1.78315,179170
1.78421,179450
1.78528,179570
1.78635,179980
1.78741,180040
1.78848,180230
1.78955,180630
1.790615,180750
1.791682,181040
1.79275,180930
1.79382,181130
1.79488,181300
1.79595,181560
1.79702,181860
1.79808,182110
1.79915,182430
1.80022,182660
1.80128,182760
1.80235,182730
1.80342,183150
1.80449,183200
1.80555,183380
1.80662,183580
1.80769,183890
1.80875,183770
1.80982,184220
1.810887,184300
1.81195,184680
1.81302,184600
1.81409,185060
1.81515,185330
1.81622,185580
1.81729,185570
1.81836,185840
1.81942,186160
1.82049,186160
1.82156,186390
1.82262,186990
1.82369,186720
1.82476,186920
1.82582,187250
1.82689,187830
1.82796,187630
1.82903,187850
1.830092,188030
1.831159,187980
1.83223,188400
1.83329,188520
1.83436,188740
1.83543,188930
1.83649,188950
1.83756,189350
1.83863,189400
1.83969,189940
1.84076,190000
1.84183,190480
1.8429,190670
1.84396,190840
1.84503,190720
1.8461,191190
1.84716,191240
1.84823,191420
1.849297,191360
1.850364,191860
1.85143,192200
1.8525,192200
1.85356,192390
1.85463,192900
1.8557,192660
1.85677,193120
1.85783,193210
1.8589,193320
1.85997,193470
1.86103,193710
1.8621,194260
1.86317,194160
1.86423,194360
1.8653,194580
1.86637,194990
1.86744,195240
1.8685,195080
1.869569,195510
1.87064,195760
1.8717,195710
1.87277,196330
1.87384,196230
1.8749,196640
1.87597,196850
1.87704,196890
1.8781,197010
1.87917,197470
1.88024,197800
1.88131,197690
1.88237,197780
1.88344,198320
1.88451,198650
1.88557,198700
1.88664,199020
1.88771,199150
1.888774,199000
1.889841,199460
1.89091,199340
1.89197,199910
1.89304,200000
1.89411,200530
1.89518,200730
1.89624,200950
1.89731,201170
1.89838,201010
1.89944,201410
1.90051,201640
1.90158,201890
1.90264,202060
1.90371,202190
1.90478,202300
1.90585,202780
1.90691,203090
1.907979,203150
1.909046,203440
1.91011,203840
1.91118,203740
1.91225,203870
1.91331,204040
1.91438,204350
1.91545,204430
1.91651,204890
1.91758,205010
1.91865,205220
1.91972,205700
1.92078,205650
1.92185,206190
1.92292,206250
1.92398,206380
1.92505,206670
1.92612,206600
1.92718,207080
1.928251,207200
1.92932,207380
1.93038,207440
1.93145,207460
1.93252,208030
1.93359,207880
1.93465,208370
1.93572,208610
1.93679,208660
1.93785,209160
1.93892,208990
1.93999,209360
1.94105,209650
1.94212,209580
1.94319,210240
1.94426,210260
1.94532,210330
1.94639,210750
1.947456,210570
1.948523,210850
1.94959,211270
1.95066,211400
1.95172,211980
1.95279,212120
1.95386,212390
1.95492,212340
1.95599,213010
1.95706,212560
1.95813,212810
1.95919,213090
1.96026,213150
1.96133,213390
1.96239,213760
1.96346,213890
1.96453,214150
1.96559,214330
1.966661,214790
1.967728,214750
1.96879,215110
1.96986,215260
1.97093,215680
1.972,215820
1.97306,216040
1.97413,216040
1.9752,216320
1.97626,216730
1.97733,216770
1.9784,216890
1.97946,217160
1.98053,217540
1.9816,217540
1.98267,218000
1.98373,218160
1.9848,218440
1.98587,218420
1.986933,218880
1.988,218990
1.98907,219360
1.99013,219540
1.9912,219880
1.99227,219950
1.99333,220130
1.9944,220410
1.99547,220580
1.99654,220630
1.9976,221110
1.99867,221180
1.99974,221230
2.0008,221600
2.00187,221690
2.00294,222180
2.004,222280
2.00507,222710
2.006138,222900
2.007205,222990
2.00827,222770
2.00934,223540
2.01041,223680
2.01147,223910
2.01254,223850
2.01361,224160
2.01467,224510
2.01574,224800
2.01681,224810
2.01787,224720
2.01894,225340
2.02001,225510
2.02108,225740
2.02214,226020
2.02321,226330
2.02428,226350
2.02534,226790
2.02641,226860
2.02748,226940
2.02854,227380
2.02961,227230
2.03068,227570
2.03174,227940
2.03281,228100